Folder: 2025-Mo-RAC/Electrochemical test/Pure Mo/Non-radiated/free-5

File: PSTATIC.DTA
EXPLAIN
TAG	POTENTIOSTATIC
TITLE	LABEL	Potentiostatic Scan	Test Identifier
DATE	LABEL	2024/12/19	Date
TIME	LABEL	10:03:56	Time
NOTES	NOTES	1	Notes...

PSTAT	PSTAT	REF620-49029	Potentiostat
VINIT	POTEN	-8.00000E-001	F	Initial E (V)
TINIT	QUANT	1.80000E+002	Initial Time (s)
VFINAL	POTEN	-8.00000E-001	F	Final E (V)
TFINAL	QUANT	0.00000E+000	Final Time (s)
SAMPLETIME	QUANT	1.00000E+000	Sample Period (s)
ILIMIT	QUANT	2.50000E+001	Limit I (mA/cm^2)
AREA	QUANT	1.00000E+000	Sample Area (cm^2)
DENSITY	QUANT	7.87000E+000	Density (g/cm^3)
EQUIV	QUANT	2.79200E+001	Equiv. Wt
IRCOMP	TOGGLE	F	IR Comp
EOC	QUANT	0	Open Circuit (V)
ELECTRODETYPE	SELECTOR	0	Electrode Type
STRIPPING	TOGGLE	F	Used for Stripping
SEQUENCER	TOGGLE	TRUE	Run as Sequence
PSTATMODEL	IQUANT	87	Pstat Model
PSTATSECTION	LABEL	REF620-49029	Pstat Section
PSTATSERIALNO	LABEL	49029	Pstat Serial Number
CTRLMODE	IQUANT	1	Control Mode
ELECTROMETER	IQUANT	0	RE=0 or CS=1
IESTAB	IQUANT	2	I/E Stability
CASPEED	IQUANT	4	Control Amp Speed
CONVENTION	IQUANT	1	Current Convention
ICHRANGE	IQUANT	2	Ich Range
ICHRANGEMODE	TOGGLE	T	Ich Auto Range
ICHOFFSETENABLE	TOGGLE	F	Ich Offset Enable
ICHOFFSET	QUANT	0	Ich Offset (V)
ICHFILTER	IQUANT	3	Ich Filter
VCHRANGE	IQUANT	3	Vch Range
VCHRANGEMODE	TOGGLE	T	Vch Auto Range
VCHOFFSETENABLE	TOGGLE	F	Vch Offset Enable
VCHOFFSET	QUANT	0	Vch Offset (V)
VCHFILTER	IQUANT	3	Vch Filter
ACHRANGE	IQUANT	2	Ach Range
ACHOFFSETENABLE	TOGGLE	F	Ach Offset Enable
ACHOFFSET	QUANT	0	Ach Offset (V)
ACHFILTER	IQUANT	1	Ach Filter
IERANGELOWERLIMIT	IQUANT	4	I/E Range Lower Limit
IERANGEMODE	TOGGLE	T	I/E AutoRange
IERANGE	IQUANT	10	I/E Range
POSFEEDENABLE	TOGGLE	F	Positive Feedback IR Comp
POSFEEDRESISTANCE	QUANT	0	Positive Feedback Resistance (ohm)
ACHSELECT	IQUANT	0	Ach Select
SENSECABLEID	IQUANT	7	Sense Cable ID
PWRCABLEID	IQUANT	7	Power Cable ID
DCCALDATE	LABEL	3/28/2024	DC Calibration Date
ACCALDATE	LABEL	6/22/2023	AC Calibration Date
THERMOSELECT	IQUANT	1	Thermo Select
FRAMEWORKVERSION	LABEL	7.10.3	Framework Version
INSTRUMENTVERSION	LABEL	4.91	Instrument Version
COMMVERSION	LABEL	5.10	Communications Version
CPUPLDVERSION	LABEL	6.00	CPU PLD Version
CTRLPLDVERSION	LABEL	7.10	CTRL PLD Version
PSTATPLDVERSION	LABEL	8.13	PSTAT PLD Version
CURVE	TABLE	180
	Pt	T	Vf	Im	Vu	Sig	Ach	IERange	Over	Temp
	#	s	V vs. Ref.	A	V	V	V	#	bits	deg C
	0	1	-8.00188E-001	-2.61964E-005	0.00000E+000	-7.99647E-001	4.94873E-004	7	...........	-327.67
	2	3	-8.00063E-001	-2.35080E-005	0.00000E+000	-7.99647E-001	4.95157E-004	7	...........	-327.67
	4	5	-8.00062E-001	-2.30944E-005	0.00000E+000	-7.99647E-001	4.94740E-004	7	...........	-327.67
	6	7	-8.00083E-001	-2.07726E-005	0.00000E+000	-7.99647E-001	4.94806E-004	7	...........	-327.67
	8	9	-8.00080E-001	-1.97585E-005	0.00000E+000	-7.99647E-001	4.94756E-004	7	...........	-327.67
	10	11	-8.00085E-001	-1.89315E-005	0.00000E+000	-7.99647E-001	4.94306E-004	7	...........	-327.67
	12	13	-8.00098E-001	-1.81992E-005	0.00000E+000	-7.99647E-001	4.93556E-004	7	...........	-327.67
	14	15	-8.00100E-001	-1.75826E-005	0.00000E+000	-7.99647E-001	4.94289E-004	7	...........	-327.67
	16	17	-8.00102E-001	-1.70347E-005	0.00000E+000	-7.99647E-001	4.92672E-004	7	...........	-327.67
	18	19	-8.00105E-001	-1.65444E-005	0.00000E+000	-7.99647E-001	4.93572E-004	7	...........	-327.67
	20	21	-8.00105E-001	-1.61145E-005	0.00000E+000	-7.99647E-001	4.93256E-004	7	...........	-327.67
	22	23	-8.00112E-001	-1.57099E-005	0.00000E+000	-7.99647E-001	4.44693E-004	7	...........	-327.67
	24	25	-8.00105E-001	-1.53381E-005	0.00000E+000	-7.99647E-001	4.46061E-004	7	...........	-327.67
	26	27	-8.00106E-001	-1.50476E-005	0.00000E+000	-7.99647E-001	4.45544E-004	7	...........	-327.67
	28	29	-8.00104E-001	-1.47558E-005	0.00000E+000	-7.99647E-001	4.45594E-004	7	...........	-327.67
	30	31	-8.00116E-001	-1.45111E-005	0.00000E+000	-7.99647E-001	4.44777E-004	7	...........	-327.67
	32	33	-8.00112E-001	-1.42494E-005	0.00000E+000	-7.99647E-001	4.44810E-004	7	...........	-327.67
	34	35	-8.00125E-001	-1.40530E-005	0.00000E+000	-7.99647E-001	4.44693E-004	7	...........	-327.67
	36	37	-8.00113E-001	-1.38181E-005	0.00000E+000	-7.99647E-001	4.44560E-004	7	...........	-327.67
	38	39	-8.00125E-001	-1.36058E-005	0.00000E+000	-7.99647E-001	4.44577E-004	7	...........	-327.67
	40	41	-8.00125E-001	-1.34138E-005	0.00000E+000	-7.99647E-001	4.42259E-004	7	...........	-327.67
	42	43	-8.00128E-001	-1.32520E-005	0.00000E+000	-7.99647E-001	4.44326E-004	7	...........	-327.67
	44	45	-8.00124E-001	-1.31011E-005	0.00000E+000	-7.99647E-001	4.42742E-004	7	...........	-327.67
	46	47	-8.00126E-001	-1.29297E-005	0.00000E+000	-7.99647E-001	4.43459E-004	7	...........	-327.67
	48	49	-8.00115E-001	-1.27362E-005	0.00000E+000	-7.99647E-001	4.45010E-004	7	...........	-327.67
	50	51	-8.00121E-001	-1.25867E-005	0.00000E+000	-7.99647E-001	4.42709E-004	7	...........	-327.67
	52	53	-8.00127E-001	-1.24495E-005	0.00000E+000	-7.99647E-001	4.43159E-004	7	...........	-327.67
	54	55	-8.00119E-001	-1.23185E-005	0.00000E+000	-7.99647E-001	4.43793E-004	7	...........	-327.67
	56	57	-8.00130E-001	-1.21975E-005	0.00000E+000	-7.99647E-001	4.43576E-004	7	...........	-327.67
	58	59	-8.00131E-001	-1.20937E-005	0.00000E+000	-7.99647E-001	4.45194E-004	7	...........	-327.67
	60	61	-8.00133E-001	-1.19839E-005	0.00000E+000	-7.99647E-001	4.43376E-004	7	...........	-327.67
	62	63	-8.00117E-001	-1.18806E-005	0.00000E+000	-7.99647E-001	4.43843E-004	7	...........	-327.67
	64	65	-8.00122E-001	-1.17889E-005	0.00000E+000	-7.99647E-001	4.43092E-004	7	...........	-327.67
	66	67	-8.00122E-001	-1.17115E-005	0.00000E+000	-7.99647E-001	4.42459E-004	7	...........	-327.67
	68	69	-8.00132E-001	-1.16199E-005	0.00000E+000	-7.99647E-001	4.44493E-004	7	...........	-327.67
	70	71	-8.00131E-001	-1.15244E-005	0.00000E+000	-7.99647E-001	4.43926E-004	7	...........	-327.67
	72	73	-8.00128E-001	-1.14435E-005	0.00000E+000	-7.99647E-001	4.44343E-004	7	...........	-327.67
	74	75	-8.00141E-001	-1.13859E-005	0.00000E+000	-7.99647E-001	4.44393E-004	7	...........	-327.67
	76	77	-8.00138E-001	-1.13128E-005	0.00000E+000	-7.99647E-001	4.42959E-004	7	...........	-327.67
	78	79	-8.00131E-001	-1.12607E-005	0.00000E+000	-7.99647E-001	4.45044E-004	7	...........	-327.67
	80	81	-8.00137E-001	-1.11986E-005	0.00000E+000	-7.99647E-001	4.42826E-004	7	...........	-327.67
	82	83	-8.00136E-001	-1.11657E-005	0.00000E+000	-7.99647E-001	4.43543E-004	7	...........	-327.67
	84	85	-8.00142E-001	-1.10978E-005	0.00000E+000	-7.99647E-001	4.42592E-004	7	...........	-327.67
	86	87	-8.00137E-001	-1.10787E-005	0.00000E+000	-7.99647E-001	4.42876E-004	7	...........	-327.67
	88	89	-8.00144E-001	-1.10192E-005	0.00000E+000	-7.99647E-001	4.41275E-004	7	...........	-327.67
	90	91	-8.00132E-001	-1.09662E-005	0.00000E+000	-7.99647E-001	4.41958E-004	7	...........	-327.67
	92	93	-8.00143E-001	-1.09264E-005	0.00000E+000	-7.99647E-001	4.43059E-004	7	...........	-327.67
	94	95	-8.00138E-001	-1.09167E-005	0.00000E+000	-7.99647E-001	4.39824E-004	7	...........	-327.67
	96	97	-8.00141E-001	-1.08904E-005	0.00000E+000	-7.99647E-001	4.42075E-004	7	...........	-327.67
	98	99	-8.00132E-001	-1.08320E-005	0.00000E+000	-7.99647E-001	4.42926E-004	7	...........	-327.67
	100	101	-8.00132E-001	-1.08123E-005	0.00000E+000	-7.99647E-001	4.42242E-004	7	...........	-327.67
	102	103	-8.00135E-001	-1.07759E-005	0.00000E+000	-7.99647E-001	4.42726E-004	7	...........	-327.67
	104	105	-8.00143E-001	-1.07546E-005	0.00000E+000	-7.99647E-001	4.40624E-004	7	...........	-327.67
	106	107	-8.00147E-001	-1.07125E-005	0.00000E+000	-7.99647E-001	4.40591E-004	7	...........	-327.67
	108	109	-8.00139E-001	-1.06538E-005	0.00000E+000	-7.99647E-001	4.40357E-004	7	...........	-327.67
	110	111	-8.00143E-001	-1.06201E-005	0.00000E+000	-7.99647E-001	4.40691E-004	7	...........	-327.67
	112	113	-8.00135E-001	-1.05734E-005	0.00000E+000	-7.99647E-001	4.44226E-004	7	...........	-327.67
	114	115	-8.00137E-001	-1.05546E-005	0.00000E+000	-7.99647E-001	4.41175E-004	7	...........	-327.67
	116	117	-8.00145E-001	-1.05072E-005	0.00000E+000	-7.99647E-001	4.42158E-004	7	...........	-327.67
	118	119	-8.00145E-001	-1.04660E-005	0.00000E+000	-7.99647E-001	4.42275E-004	7	...........	-327.67
	120	121	-8.00136E-001	-1.04242E-005	0.00000E+000	-7.99647E-001	4.39740E-004	7	...........	-327.67
	122	123	-8.00134E-001	-1.03956E-005	0.00000E+000	-7.99647E-001	4.42525E-004	7	...........	-327.67
	124	125	-8.00135E-001	-1.03725E-005	0.00000E+000	-7.99647E-001	4.39940E-004	7	...........	-327.67
	126	127	-8.00133E-001	-1.03462E-005	0.00000E+000	-7.99647E-001	4.40307E-004	7	...........	-327.67
	128	129	-8.00143E-001	-1.03295E-005	0.00000E+000	-7.99647E-001	4.42475E-004	7	...........	-327.67
	130	131	-8.00135E-001	-1.02984E-005	0.00000E+000	-7.99647E-001	4.42775E-004	7	...........	-327.67
	132	133	-8.00154E-001	-1.02893E-005	0.00000E+000	-7.99647E-001	4.42392E-004	7	...........	-327.67
	134	135	-8.00141E-001	-1.02777E-005	0.00000E+000	-7.99647E-001	4.41858E-004	7	...........	-327.67
	136	137	-8.00136E-001	-1.02593E-005	0.00000E+000	-7.99647E-001	4.40591E-004	7	...........	-327.67
	138	139	-8.00140E-001	-1.02620E-005	0.00000E+000	-7.99647E-001	4.40591E-004	7	...........	-327.67
	140	141	-8.00141E-001	-1.02396E-005	0.00000E+000	-7.99647E-001	4.41308E-004	7	...........	-327.67
	142	143	-8.00138E-001	-1.02420E-005	0.00000E+000	-7.99647E-001	4.43326E-004	7	...........	-327.67
	144	145	-8.00136E-001	-1.02410E-005	0.00000E+000	-7.99647E-001	4.42659E-004	7	...........	-327.67
	146	147	-8.00128E-001	-1.02474E-005	0.00000E+000	-7.99647E-001	4.40841E-004	7	...........	-327.67
	148	149	-8.00131E-001	-1.02457E-005	0.00000E+000	-7.99647E-001	4.43092E-004	7	...........	-327.67
	150	151	-8.00136E-001	-1.01909E-005	0.00000E+000	-7.99647E-001	4.43643E-004	7	...........	-327.67
	152	153	-8.00131E-001	-1.02160E-005	0.00000E+000	-7.99647E-001	4.41792E-004	7	...........	-327.67
	154	155	-8.00135E-001	-1.02058E-005	0.00000E+000	-7.99647E-001	4.40624E-004	7	...........	-327.67
	156	157	-8.00136E-001	-1.02351E-005	0.00000E+000	-7.99647E-001	4.41792E-004	7	...........	-327.67
	158	159	-8.00134E-001	-1.02579E-005	0.00000E+000	-7.99647E-001	4.39707E-004	7	...........	-327.67
	160	161	-8.00133E-001	-1.02985E-005	0.00000E+000	-7.99647E-001	4.42375E-004	7	...........	-327.67
	162	163	-8.00138E-001	-1.03136E-005	0.00000E+000	-7.99647E-001	4.40524E-004	7	...........	-327.67
	164	165	-8.00143E-001	-1.03663E-005	0.00000E+000	-7.99647E-001	4.41925E-004	7	...........	-327.67
	166	167	-8.00143E-001	-1.03911E-005	0.00000E+000	-7.99647E-001	4.40858E-004	7	...........	-327.67
	168	169	-8.00144E-001	-1.03957E-005	0.00000E+000	-7.99647E-001	4.39957E-004	7	...........	-327.67
	170	171	-8.00146E-001	-1.04521E-005	0.00000E+000	-7.99647E-001	4.44026E-004	7	...........	-327.67
	172	173	-8.00148E-001	-1.04578E-005	0.00000E+000	-7.99647E-001	4.43226E-004	7	...........	-327.67
	174	175	-8.00144E-001	-1.04736E-005	0.00000E+000	-7.99647E-001	4.42359E-004	7	...........	-327.67
	176	177	-8.00135E-001	-1.04793E-005	0.00000E+000	-7.99647E-001	4.40708E-004	7	...........	-327.67
	178	179	-8.00133E-001	-1.04949E-005	0.00000E+000	-7.99647E-001	4.41858E-004	7	...........	-327.67
	179	180	-8.00143E-001	-1.05009E-005	0.00000E+000	-7.99647E-001	4.43526E-004	7	...........	-327.67