Folder: 2025-Mo-RAC/Electrochemical test/Pure Mo/Non-radiated/free-3

File: POTDYN.DTA
EXPLAIN
TAG	POTENTIODYNAMIC
TITLE	LABEL	Potentiodynamic Scan	Test Identifier
DATE	LABEL	2024/12/18	Date
TIME	LABEL	16:42:46	Time
NOTES	NOTES	1	Notes...

PSTAT	PSTAT	REF620-49045	Potentiostat
VINIT	POTEN	-2.50000E-001	T	Initial E (V)
VFINAL	POTEN	5.00000E-001	T	Final E (V)
SCANRATE	QUANT	1.60000E-001	Scan Rate (mV/s)
SAMPLETIME	QUANT	1.00000E+000	Sample Period (s)
AREA	QUANT	1.00000E+000	Sample Area (cm^2)
DENSITY	QUANT	7.87000E+000	Density (g/cm^3)
EQUIV	QUANT	2.79200E+001	Equiv. Wt
IRCOMP	TOGGLE	F	IR Comp
EOC	QUANT	-0.2368153	Open Circuit (V)
ELECTRODETYPE	SELECTOR	0	Electrode Type
STRIPPING	TOGGLE	F	Used for Stripping
SEQUENCER	TOGGLE	TRUE	Run as Sequence
PSTATMODEL	IQUANT	87	Pstat Model
PSTATSECTION	LABEL	REF620-49045	Pstat Section
PSTATSERIALNO	LABEL	49045	Pstat Serial Number
CTRLMODE	IQUANT	1	Control Mode
ELECTROMETER	IQUANT	0	RE=0 or CS=1
IESTAB	IQUANT	2	I/E Stability
CASPEED	IQUANT	4	Control Amp Speed
CONVENTION	IQUANT	1	Current Convention
ICHRANGE	IQUANT	2	Ich Range
ICHRANGEMODE	TOGGLE	T	Ich Auto Range
ICHOFFSETENABLE	TOGGLE	F	Ich Offset Enable
ICHOFFSET	QUANT	0	Ich Offset (V)
ICHFILTER	IQUANT	3	Ich Filter
VCHRANGE	IQUANT	3	Vch Range
VCHRANGEMODE	TOGGLE	T	Vch Auto Range
VCHOFFSETENABLE	TOGGLE	F	Vch Offset Enable
VCHOFFSET	QUANT	0	Vch Offset (V)
VCHFILTER	IQUANT	3	Vch Filter
ACHRANGE	IQUANT	2	Ach Range
ACHOFFSETENABLE	TOGGLE	F	Ach Offset Enable
ACHOFFSET	QUANT	0	Ach Offset (V)
ACHFILTER	IQUANT	1	Ach Filter
IERANGELOWERLIMIT	IQUANT	4	I/E Range Lower Limit
IERANGEMODE	TOGGLE	T	I/E AutoRange
IERANGE	IQUANT	10	I/E Range
POSFEEDENABLE	TOGGLE	F	Positive Feedback IR Comp
POSFEEDRESISTANCE	QUANT	0	Positive Feedback Resistance (ohm)
ACHSELECT	IQUANT	0	Ach Select
SENSECABLEID	IQUANT	7	Sense Cable ID
PWRCABLEID	IQUANT	7	Power Cable ID
DCCALDATE	LABEL	4/1/2024	DC Calibration Date
ACCALDATE	LABEL	10/11/2023	AC Calibration Date
THERMOSELECT	IQUANT	1	Thermo Select
FRAMEWORKVERSION	LABEL	7.10.3	Framework Version
INSTRUMENTVERSION	LABEL	4.91	Instrument Version
COMMVERSION	LABEL	5.10	Communications Version
CPUPLDVERSION	LABEL	6.00	CPU PLD Version
CTRLPLDVERSION	LABEL	7.10	CTRL PLD Version
PSTATPLDVERSION	LABEL	8.13	PSTAT PLD Version
CURVE	TABLE	4688
	Pt	T	Vf	Im	Vu	Sig	Ach	IERange	Over	Temp
	#	s	V vs. Ref.	A	V	V	V	#	bits	deg C
	0	1	-4.86137E-001	-3.95909E-006	0.00000E+000	-4.86886E-001	1.93728E-004	6	...........	-327.67
	47	48	-4.78799E-001	-2.01704E-006	0.00000E+000	-4.79365E-001	1.65261E-004	6	...........	-327.67
	94	95	-4.71304E-001	-1.54686E-006	0.00000E+000	-4.71844E-001	1.65261E-004	6	...........	-327.67
	141	142	-4.63796E-001	-1.24541E-006	0.00000E+000	-4.64323E-001	1.62594E-004	6	...........	-327.67
	188	189	-4.56297E-001	-1.02772E-006	0.00000E+000	-4.56802E-001	1.61061E-004	6	...........	-327.67
	235	236	-4.48782E-001	-8.78239E-007	0.00000E+000	-4.49280E-001	1.58777E-004	6	...........	-327.67
	282	283	-4.41273E-001	-7.65751E-007	0.00000E+000	-4.41759E-001	1.61444E-004	6	...........	-327.67
	329	330	-4.33750E-001	-6.81672E-007	0.00000E+000	-4.34238E-001	1.61061E-004	6	...........	-327.67
	376	377	-4.26237E-001	-6.20255E-007	0.00000E+000	-4.26717E-001	1.59177E-004	6	...........	-327.67
	423	424	-4.18728E-001	-5.75536E-007	0.00000E+000	-4.19197E-001	1.63744E-004	6	...........	-327.67
	470	471	-4.11187E-001	-5.43513E-007	0.00000E+000	-4.11676E-001	1.62861E-004	6	...........	-327.67
	517	518	-4.03684E-001	-5.13741E-007	0.00000E+000	-4.04155E-001	1.61527E-004	6	...........	-327.67
	564	565	-3.95941E-001	-4.85138E-007	0.00000E+000	-3.96619E-001	1.64844E-004	5	...........	-327.67
	611	612	-3.88429E-001	-4.60812E-007	0.00000E+000	-3.89098E-001	1.63177E-004	5	...........	-327.67
	658	659	-3.80920E-001	-4.35858E-007	0.00000E+000	-3.81577E-001	1.63227E-004	5	...........	-327.67
	705	706	-3.73415E-001	-4.14990E-007	0.00000E+000	-3.74055E-001	1.62727E-004	5	...........	-327.67
	752	753	-3.65911E-001	-3.88736E-007	0.00000E+000	-3.66534E-001	1.62061E-004	5	...........	-327.67
	799	800	-3.58392E-001	-3.66974E-007	0.00000E+000	-3.59013E-001	1.58910E-004	5	...........	-327.67
	846	847	-3.50900E-001	-3.49222E-007	0.00000E+000	-3.51493E-001	1.61877E-004	5	...........	-327.67
	893	894	-3.43386E-001	-3.23268E-007	0.00000E+000	-3.43972E-001	1.63344E-004	5	...........	-327.67
	940	941	-3.35874E-001	-3.01036E-007	0.00000E+000	-3.36451E-001	1.62277E-004	5	...........	-327.67
	987	988	-3.28375E-001	-2.79583E-007	0.00000E+000	-3.28930E-001	1.63027E-004	5	...........	-327.67
	1034	1035	-3.20848E-001	-2.54408E-007	0.00000E+000	-3.21409E-001	1.61377E-004	5	...........	-327.67
	1081	1082	-3.13349E-001	-2.36033E-007	0.00000E+000	-3.13888E-001	1.61977E-004	5	...........	-327.67
	1128	1129	-3.05835E-001	-2.13380E-007	0.00000E+000	-3.06366E-001	1.60694E-004	5	...........	-327.67
	1175	1176	-2.98332E-001	-1.86687E-007	0.00000E+000	-2.98845E-001	1.64294E-004	5	...........	-327.67
	1222	1223	-2.90826E-001	-1.58721E-007	0.00000E+000	-2.91324E-001	1.63811E-004	5	...........	-327.67
	1269	1270	-2.83319E-001	-1.31710E-007	0.00000E+000	-2.83803E-001	1.63627E-004	5	...........	-327.67
	1316	1317	-2.75820E-001	-1.06290E-007	0.00000E+000	-2.76283E-001	1.63361E-004	5	...........	-327.67
	1363	1364	-2.68307E-001	-7.87875E-008	0.00000E+000	-2.68762E-001	1.63794E-004	5	...........	-327.67
	1410	1411	-2.60790E-001	-5.39683E-008	0.00000E+000	-2.61241E-001	1.62194E-004	5	...........	-327.67
	1457	1458	-2.53191E-001	-2.25569E-008	0.00000E+000	-2.53724E-001	1.61511E-004	4	...........	-327.67
	1504	1505	-2.45805E-001	3.18115E-009	0.00000E+000	-2.46202E-001	1.64511E-004	4	...........	-327.67
	1551	1552	-2.38421E-001	3.14142E-008	0.00000E+000	-2.38681E-001	1.62377E-004	4	...........	-327.67
	1598	1599	-2.30775E-001	5.94930E-008	0.00000E+000	-2.31156E-001	1.60411E-004	5	...........	-327.67
	1645	1646	-2.23266E-001	8.73707E-008	0.00000E+000	-2.23635E-001	1.62477E-004	5	...........	-327.67
	1692	1693	-2.15758E-001	1.24667E-007	0.00000E+000	-2.16114E-001	1.62944E-004	5	...........	-327.67
	1739	1740	-2.08265E-001	1.58404E-007	0.00000E+000	-2.08594E-001	1.61244E-004	5	...........	-327.67
	1786	1787	-2.00758E-001	1.99105E-007	0.00000E+000	-2.01073E-001	1.64144E-004	5	...........	-327.67
	1833	1834	-1.93256E-001	2.40966E-007	0.00000E+000	-1.93552E-001	1.61394E-004	5	...........	-327.67
	1880	1881	-1.85770E-001	2.82524E-007	0.00000E+000	-1.86030E-001	1.60494E-004	5	...........	-327.67
	1927	1928	-1.78280E-001	3.32227E-007	0.00000E+000	-1.78509E-001	1.64177E-004	5	...........	-327.67
	1974	1975	-1.70780E-001	3.87985E-007	0.00000E+000	-1.70988E-001	1.62561E-004	5	...........	-327.67
	2021	2022	-1.63295E-001	4.47816E-007	0.00000E+000	-1.63467E-001	1.59227E-004	5	...........	-327.67
	2068	2069	-1.55799E-001	5.10069E-007	0.00000E+000	-1.55946E-001	1.65111E-004	5	...........	-327.67
	2115	2116	-1.48060E-001	5.95931E-007	0.00000E+000	-1.48438E-001	1.62327E-004	6	...........	-327.67
	2162	2163	-1.40545E-001	6.72622E-007	0.00000E+000	-1.40917E-001	1.60211E-004	6	...........	-327.67
	2209	2210	-1.33027E-001	7.65440E-007	0.00000E+000	-1.33396E-001	1.63444E-004	6	...........	-327.67
	2256	2257	-1.25508E-001	8.76389E-007	0.00000E+000	-1.25875E-001	1.63144E-004	6	...........	-327.67
	2303	2304	-1.17999E-001	1.00882E-006	0.00000E+000	-1.18354E-001	1.59327E-004	6	...........	-327.67
	2350	2351	-1.10486E-001	1.14243E-006	0.00000E+000	-1.10833E-001	1.61611E-004	6	...........	-327.67
	2397	2398	-1.02958E-001	1.29288E-006	0.00000E+000	-1.03312E-001	1.61261E-004	6	...........	-327.67
	2444	2445	-9.54501E-002	1.46453E-006	0.00000E+000	-9.57906E-002	1.61144E-004	6	...........	-327.67
	2491	2492	-8.79551E-002	1.65493E-006	0.00000E+000	-8.82695E-002	1.60944E-004	6	...........	-327.67
	2538	2539	-8.04281E-002	1.87428E-006	0.00000E+000	-8.07484E-002	1.63061E-004	6	...........	-327.67
	2585	2586	-7.29245E-002	2.11778E-006	0.00000E+000	-7.32274E-002	1.64061E-004	6	...........	-327.67
	2632	2633	-6.54236E-002	2.39239E-006	0.00000E+000	-6.57063E-002	1.61577E-004	6	...........	-327.67
	2679	2680	-5.79096E-002	2.69931E-006	0.00000E+000	-5.81852E-002	1.61411E-004	6	...........	-327.67
	2726	2727	-5.04001E-002	3.03182E-006	0.00000E+000	-5.06641E-002	1.63111E-004	6	...........	-327.67
	2773	2774	-4.29059E-002	3.40289E-006	0.00000E+000	-4.31430E-002	1.62077E-004	6	...........	-327.67
	2820	2821	-3.54067E-002	3.82067E-006	0.00000E+000	-3.56219E-002	1.62561E-004	6	...........	-327.67
	2867	2868	-2.79109E-002	4.30275E-006	0.00000E+000	-2.81016E-002	1.60511E-004	6	...........	-327.67
	2914	2915	-2.04175E-002	4.84732E-006	0.00000E+000	-2.05805E-002	1.63627E-004	6	...........	-327.67
	2961	2962	-1.26741E-002	5.55532E-006	0.00000E+000	-1.30555E-002	1.63044E-004	7	...........	-327.67
	3008	3009	-5.16899E-003	6.33267E-006	0.00000E+000	-5.53439E-003	1.64194E-004	7	...........	-327.67
	3055	3056	2.35066E-003	7.24666E-006	0.00000E+000	1.98671E-003	1.65861E-004	7	...........	-327.67
	3102	3103	9.86622E-003	8.35856E-006	0.00000E+000	9.50781E-003	1.63661E-004	7	...........	-327.67
	3149	3150	1.73770E-002	9.65404E-006	0.00000E+000	1.70289E-002	1.65027E-004	7	...........	-327.67
	3196	3197	2.48888E-002	1.12008E-005	0.00000E+000	2.45500E-002	1.64361E-004	7	...........	-327.67
	3243	3244	3.24060E-002	1.30245E-005	0.00000E+000	3.20711E-002	1.63911E-004	7	...........	-327.67
	3290	3291	3.99034E-002	1.51907E-005	0.00000E+000	3.95922E-002	1.64977E-004	7	...........	-327.67
	3337	3338	4.74157E-002	1.79043E-005	0.00000E+000	4.71133E-002	1.62661E-004	7	...........	-327.67
	3384	3385	5.49194E-002	2.13765E-005	0.00000E+000	5.46344E-002	1.60444E-004	7	...........	-327.67
	3431	3432	6.24073E-002	2.58678E-005	0.00000E+000	6.21562E-002	1.59094E-004	7	...........	-327.67
	3478	3479	6.99014E-002	3.10989E-005	0.00000E+000	6.96773E-002	1.60994E-004	7	...........	-327.67
	3525	3526	7.73911E-002	3.70276E-005	0.00000E+000	7.71984E-002	1.62277E-004	7	...........	-327.67
	3572	3573	8.48871E-002	4.41636E-005	0.00000E+000	8.47195E-002	1.61194E-004	7	...........	-327.67
	3619	3620	9.23514E-002	5.27239E-005	0.00000E+000	9.22406E-002	1.62761E-004	7	...........	-327.67
	3666	3667	1.00114E-001	6.34366E-005	0.00000E+000	9.97726E-002	1.61811E-004	8	...........	-327.67
	3713	3714	1.07633E-001	7.55942E-005	0.00000E+000	1.07294E-001	1.60861E-004	8	...........	-327.67
	3760	3761	1.15124E-001	9.03318E-005	0.00000E+000	1.14815E-001	1.61111E-004	8	...........	-327.67
	3807	3808	1.22660E-001	1.08366E-004	0.00000E+000	1.22336E-001	1.61561E-004	8	...........	-327.67
	3854	3855	1.30159E-001	1.29965E-004	0.00000E+000	1.29857E-001	1.58427E-004	8	...........	-327.67
	3901	3902	1.37663E-001	1.56180E-004	0.00000E+000	1.37378E-001	1.58477E-004	8	...........	-327.67
	3948	3949	1.45175E-001	1.87815E-004	0.00000E+000	1.44899E-001	1.60677E-004	8	...........	-327.67
	3995	3996	1.52677E-001	2.23833E-004	0.00000E+000	1.52420E-001	1.60711E-004	8	...........	-327.67
	4042	4043	1.60174E-001	2.64642E-004	0.00000E+000	1.59941E-001	1.60911E-004	8	...........	-327.67
	4089	4090	1.67670E-001	3.11569E-004	0.00000E+000	1.67462E-001	1.61277E-004	8	...........	-327.67
	4136	4137	1.75156E-001	3.65030E-004	0.00000E+000	1.74984E-001	1.60127E-004	8	...........	-327.67
	4183	4184	1.82654E-001	4.26096E-004	0.00000E+000	1.82505E-001	1.58794E-004	8	...........	-327.67
	4230	4231	1.90134E-001	4.95236E-004	0.00000E+000	1.90027E-001	1.61544E-004	8	...........	-327.67
	4277	4278	1.97862E-001	5.77455E-004	0.00000E+000	1.97538E-001	1.61427E-004	9	...........	-327.67
	4324	4325	2.05377E-001	6.66575E-004	0.00000E+000	2.05059E-001	1.61094E-004	9	...........	-327.67
	4371	4372	2.12895E-001	7.66531E-004	0.00000E+000	2.12580E-001	1.64127E-004	9	...........	-327.67
	4418	4419	2.20410E-001	8.77127E-004	0.00000E+000	2.20101E-001	1.61927E-004	9	...........	-327.67
	4465	4466	2.27928E-001	9.97040E-004	0.00000E+000	2.27622E-001	1.58744E-004	9	...........	-327.67
	4512	4513	2.35440E-001	1.12639E-003	0.00000E+000	2.35143E-001	1.58877E-004	9	...........	-327.67
	4559	4560	2.42947E-001	1.26507E-003	0.00000E+000	2.42664E-001	1.60060E-004	9	...........	-327.67
	4606	4607	2.50457E-001	1.41677E-003	0.00000E+000	2.50185E-001	1.59444E-004	9	...........	-327.67
	4653	4654	2.57966E-001	1.58288E-003	0.00000E+000	2.57706E-001	1.61594E-004	9	...........	-327.67
	4687	4688	2.63399E-001	1.71318E-003	0.00000E+000	2.63147E-001	1.58277E-004	9	...........	-327.67